"154635 - RawData-003 - E:\UV Data\adv phy chem lab\batch A&B\Au np 3_10ul.spc"
"Wavelength nm."	"Abs."
200.00	2.281
201.00	2.032
202.00	1.738
203.00	1.485
204.00	1.271
205.00	1.083
206.00	0.930
207.00	0.813
208.00	0.718
209.00	0.642
210.00	0.588
211.00	0.544
212.00	0.510
213.00	0.486
214.00	0.471
215.00	0.460
216.00	0.455
217.00	0.453
218.00	0.453
219.00	0.456
220.00	0.460
221.00	0.465
222.00	0.471
223.00	0.476
224.00	0.481
225.00	0.485
226.00	0.489
227.00	0.491
228.00	0.493
229.00	0.493
230.00	0.493
231.00	0.491
232.00	0.488
233.00	0.483
234.00	0.477
235.00	0.469
236.00	0.461
237.00	0.451
238.00	0.441
239.00	0.431
240.00	0.420
241.00	0.410
242.00	0.399
243.00	0.387
244.00	0.376
245.00	0.364
246.00	0.351
247.00	0.339
248.00	0.328
249.00	0.317
250.00	0.308
251.00	0.300
252.00	0.294
253.00	0.288
254.00	0.284
255.00	0.280
256.00	0.277
257.00	0.274
258.00	0.271
259.00	0.269
260.00	0.266
261.00	0.264
262.00	0.261
263.00	0.258
264.00	0.255
265.00	0.252
266.00	0.248
267.00	0.244
268.00	0.239
269.00	0.234
270.00	0.229
271.00	0.225
272.00	0.220
273.00	0.216
274.00	0.213
275.00	0.209
276.00	0.207
277.00	0.204
278.00	0.203
279.00	0.202
280.00	0.202
281.00	0.203
282.00	0.204
283.00	0.206
284.00	0.208
285.00	0.210
286.00	0.214
287.00	0.217
288.00	0.220
289.00	0.223
290.00	0.226
291.00	0.229
292.00	0.232
293.00	0.234
294.00	0.237
295.00	0.239
296.00	0.240
297.00	0.241
298.00	0.241
299.00	0.242
300.00	0.242
301.00	0.242
302.00	0.242
303.00	0.241
304.00	0.241
305.00	0.240
306.00	0.238
307.00	0.237
308.00	0.236
309.00	0.236
310.00	0.235
311.00	0.234
312.00	0.234
313.00	0.232
314.00	0.231
315.00	0.229
316.00	0.227
317.00	0.225
318.00	0.222
319.00	0.219
320.00	0.217
321.00	0.215
322.00	0.213
323.00	0.211
324.00	0.210
325.00	0.210
326.00	0.210
327.00	0.210
328.00	0.212
329.00	0.214
330.00	0.216
331.00	0.218
332.00	0.222
333.00	0.226
334.00	0.230
335.00	0.235
336.00	0.240
337.00	0.245
338.00	0.251
339.00	0.257
340.00	0.263
341.00	0.266
342.00	0.272
343.00	0.279
344.00	0.288
345.00	0.296
346.00	0.304
347.00	0.314
348.00	0.322
349.00	0.331
350.00	0.341
351.00	0.352
352.00	0.362
353.00	0.372
354.00	0.383
355.00	0.394
356.00	0.404
357.00	0.416
358.00	0.427
359.00	0.439
360.00	0.451
361.00	0.464
362.00	0.477
363.00	0.491
364.00	0.504
365.00	0.519
366.00	0.535
367.00	0.548
368.00	0.563
369.00	0.577
370.00	0.591
371.00	0.605
372.00	0.619
373.00	0.634
374.00	0.647
375.00	0.661
376.00	0.675
377.00	0.689
378.00	0.702
379.00	0.715
380.00	0.729
381.00	0.742
382.00	0.754
383.00	0.767
384.00	0.780
385.00	0.791
386.00	0.801
387.00	0.811
388.00	0.821
389.00	0.830
390.00	0.838
391.00	0.846
392.00	0.853
393.00	0.859
394.00	0.865
395.00	0.870
396.00	0.874
397.00	0.877
398.00	0.879
399.00	0.881
400.00	0.882
401.00	0.882
402.00	0.880
403.00	0.879
404.00	0.875
405.00	0.871
406.00	0.865
407.00	0.859
408.00	0.852
409.00	0.843
410.00	0.834
411.00	0.823
412.00	0.811
413.00	0.799
414.00	0.785
415.00	0.771
416.00	0.757
417.00	0.741
418.00	0.725
419.00	0.709
420.00	0.692
421.00	0.674
422.00	0.657
423.00	0.639
424.00	0.621
425.00	0.604
426.00	0.587
427.00	0.569
428.00	0.551
429.00	0.532
430.00	0.515
431.00	0.497
432.00	0.479
433.00	0.462
434.00	0.445
435.00	0.428
436.00	0.410
437.00	0.394
438.00	0.377
439.00	0.361
440.00	0.345
441.00	0.330
442.00	0.316
443.00	0.302
444.00	0.288
445.00	0.274
446.00	0.261
447.00	0.249
448.00	0.237
449.00	0.226
450.00	0.216
451.00	0.206
452.00	0.197
453.00	0.187
454.00	0.179
455.00	0.171
456.00	0.163
457.00	0.155
458.00	0.148
459.00	0.142
460.00	0.136
461.00	0.130
462.00	0.125
463.00	0.119
464.00	0.115
465.00	0.110
466.00	0.106
467.00	0.103
468.00	0.100
469.00	0.096
470.00	0.094
471.00	0.091
472.00	0.089
473.00	0.087
474.00	0.085
475.00	0.083
476.00	0.082
477.00	0.081
478.00	0.079
479.00	0.078
480.00	0.077
481.00	0.077
482.00	0.076
483.00	0.075
484.00	0.075
485.00	0.075
486.00	0.074
487.00	0.074
488.00	0.074
489.00	0.074
490.00	0.074
491.00	0.075
492.00	0.075
493.00	0.075
494.00	0.075
495.00	0.075
496.00	0.075
497.00	0.075
498.00	0.074
499.00	0.074
500.00	0.074
501.00	0.074
502.00	0.074
503.00	0.073
504.00	0.073
505.00	0.073
506.00	0.073
507.00	0.072
508.00	0.072
509.00	0.072
510.00	0.072
511.00	0.072
512.00	0.072
513.00	0.072
514.00	0.071
515.00	0.071
516.00	0.071
517.00	0.071
518.00	0.071
519.00	0.071
520.00	0.071
521.00	0.070
522.00	0.070
523.00	0.070
524.00	0.070
525.00	0.069
526.00	0.069
527.00	0.069
528.00	0.069
529.00	0.068
530.00	0.068
531.00	0.068
532.00	0.068
533.00	0.067
534.00	0.067
535.00	0.067
536.00	0.066
537.00	0.066
538.00	0.066
539.00	0.066
540.00	0.065
541.00	0.065
542.00	0.065
543.00	0.064
544.00	0.064
545.00	0.064
546.00	0.063
547.00	0.063
548.00	0.063
549.00	0.063
550.00	0.062
551.00	0.062
552.00	0.062
553.00	0.062
554.00	0.061
555.00	0.061
556.00	0.061
557.00	0.061
558.00	0.060
559.00	0.060
560.00	0.060
561.00	0.060
562.00	0.060
563.00	0.060
564.00	0.059
565.00	0.059
566.00	0.059
567.00	0.059
568.00	0.059
569.00	0.059
570.00	0.059
571.00	0.058
572.00	0.058
573.00	0.058
574.00	0.058
575.00	0.058
576.00	0.058
577.00	0.058
578.00	0.058
579.00	0.058
580.00	0.058
581.00	0.057
582.00	0.057
583.00	0.057
584.00	0.057
585.00	0.057
586.00	0.057
587.00	0.057
588.00	0.057
589.00	0.057
590.00	0.057
591.00	0.057
592.00	0.057
593.00	0.057
594.00	0.057
595.00	0.057
596.00	0.057
597.00	0.056
598.00	0.056
599.00	0.056
600.00	0.056
